30
X(deg)  E(H)            Eintra(KJ/mol)  dE/dX(H/Bohr)      dE/dX(KJ/mol/A)
40.0   -1205.155924780  0.000000         0.000042689        0.211800
35.0   -1205.155891030  0.088611         0.000138954        0.689417
30.0   -1205.155779260  0.382063         0.000287569        1.426770
25.0   -1205.155568930  0.934284         0.000491615        2.439140
20.0   -1205.155262420  1.739030         0.000655997        3.254710
15.0   -1205.154877090  2.750710         0.000800262        3.970480
10.0   -1205.154418310  3.955240         0.000954839        4.737410
5.0    -1205.153871350  5.391280         0.001138936        5.650800
0.0    -1205.153234650  7.062940         0.001286597        6.383420
45.0   -1205.155899070  0.067502         0.000103359        0.512813
50.0   -1205.155811140  0.298362         0.000202990        1.007130
55.0   -1205.155677860  0.648288         0.000254149        1.260950
60.0   -1205.155522750  1.055530         0.000261191        1.295890
65.0   -1205.155349290  1.510950         0.000304324        1.509900
70.0   -1205.155145810  2.045190         0.000316915        1.572370
75.0   -1205.154964460  2.521320         0.000240412        1.192800
80.0   -1205.154833930  2.864030         0.000169943        0.843168
85.0   -1205.154744330  3.099270         0.000102731        0.509697
110.0  -1205.155307450  1.620800         0.000076791        0.380997
105.0  -1205.155227280  1.831290         0.000179299        0.889587
100.0  -1205.155072860  2.236720         0.000256508        1.272660
95.0   -1205.154883500  2.733880         0.000280621        1.392290
90.0   -1205.154701130  3.212690         0.000204265        1.013460
115.0  -1205.155282190  1.687120         0.000155719        0.772596
120.0  -1205.155149760  2.034810         0.000208549        1.034710
125.0  -1205.154930930  2.609350         0.000378925        1.880030
130.0  -1205.154559490  3.584570         0.000568676        2.821470
135.0  -1205.154029500  4.976060         0.000757991        3.760750
140.0  -1205.153333360  6.803770         0.000955585        4.741110
145.0  -1205.152462480  9.090270         0.001151038        5.710850
150.0  -1205.151419670 11.828200         0.001339228        6.644550
155.0  -1205.150210670 15.002400         0.001516876        7.525940
160.0  -1205.148842440 18.594700         0.001684954        8.359860
165.0  -1205.147332530 22.558900         0.001819730        9.028540
170.0  -1205.145714020 26.808500         0.001927081        9.561160
175.0  -1205.144015490 31.267900         0.002010296        9.974030
180.0  -1205.142269370 35.852200         0.002058696       10.214200
